File: solution/Tensile_test_PE.csv
Time;Displacement;Force
(s);(mm);(kN)
0;0,1366;0,005
0,18;0,2673;0,0201
0,36;0,4131;0,0376
0,54;0,563;0,0535
0,72;0,7115;0,0676
0,9;0,8621;0,0802
1,08;10,114;0,0912
1,26;11,631;0,1009
1,44;13,131;0,1092
1,62;14,646;0,1164
1,8;16,135;0,1225
1,98;17,623;0,1279
2,16;19,118;0,1324
2,34;20,622;0,1366
2,52;22,123;0,1401
2,7;23,633;0,1432
2,88;25,136;0,1459
3,06;26,641;0,1483
3,24;28,133;0,1502
3,42;29,637;0,1521
3,6;3,113;0,1537
3,78;32,629;0,155
3,96;34,119;0,1561
4,14;35,634;0,1571
4,32;37,133;0,1578
4,5;38,646;0,1585
4,68;40,135;0,159
4,86;41,635;0,1595
5,04;43,117;0,1597
5,22;44,621;0,1601
5,4;46,111;0,1602
5,58;47,622;0,1604
5,76;49,124;0,1604
5,94;50,642;0,1605
6,12;52,133;0,1603
6,3;53,642;0,1603
6,48;55,115;0,16
6,66;56,626;0,1601
6,84;58,104;0,1598
7,02;59,628;0,1597
7,2;61,123;0,1593
7,38;62,644;0,1592
7,56;64,138;0,1588
7,74;65,648;0,1586
7,92;67,129;0,1582
8,1;68,634;0,158
8,28;7,012;0,1576
8,46;71,631;0,1573
8,64;73,127;0,1569
8,82;7,464;0,1566
9;76,143;0,1562
9,18;77,646;0,1559
9,36;79,131;0,1554
9,54;80,627;0,1551
9,72;82,112;0,1547
9,9;8,362;0,1545
10,08;85,116;0,1541
10,26;86,635;0,1537
10,44;88,133;0,1534
10,62;89,638;0,153
10,8;91,126;0,1526
10,98;9,263;0,1523
11,16;94,117;0,1519
11,34;95,622;0,1517
11,52;97,123;0,1513
11,7;98,631;0,151
11,88;100,136;0,1507
12,06;10,165;0,1503
12,24;103,138;0,1499
12,42;104,639;0,1497
12,6;106,124;0,1492
12,78;10,763;0,149
12,96;109,123;0,1486
13,14;110,634;0,1483
13,32;11,214;0,1479
13,5;113,648;0,1476
13,68;115,135;0,1472
13,86;116,638;0,1469
14,04;118,116;0,1465
14,22;119,626;0,1462
14,4;121,115;0,1458
14,58;122,625;0,1455
14,76;124,122;0,1451
14,94;125,641;0,1448
15,12;127,132;0,1443
15,3;128,641;0,144
15,48;130,115;0,1435
15,66;131,625;0,1433
15,84;133,112;0,1428
16,02;134,628;0,1425
16,2;136,122;0,142
16,38;137,645;0,1417
16,56;139,138;0,1412
16,74;140,649;0,1408
16,92;142,125;0,1403
17,1;14,363;0,1399
17,28;145,117;0,1394
17,46;146,636;0,1391
17,64;148,122;0,1385
17,82;149,643;0,1381
18;151,142;0,1375
18,18;152,646;0,1371
18,36;15,413;0,1365
18,54;155,627;0,1361
18,72;157,111;0,1356
18,9;158,625;0,1352
19,08;16,012;0,1347
19,26;161,634;0,1343
19,44;163,129;0,1338
19,62;164,637;0,1334
19,8;166,135;0,1329
19,98;167,629;0,1325
20,16;169,121;0,132
20,34;170,618;0,1316
20,52;172,122;0,1312
20,7;173,629;0,1308
20,88;175,137;0,1304
21,06;176,643;0,1299
21,24;178,143;0,1295
21,42;17,964;0,1292
21,6;181,124;0,1288
21,78;182,627;0,1285
21,96;184,121;0,1281
22,14;185,637;0,1278
22,32;187,134;0,1273
22,5;188,644;0,127
22,68;190,134;0,1267
22,86;19,164;0,1264
23,04;193,118;0,1261
23,22;194,625;0,1259
23,4;196,113;0,1256
23,58;197,624;0,1254
23,76;199,127;0,1251
23,94;200,643;0,125
24,12;20,213;0,1246
24,3;20,364;0,1245
24,48;205,113;0,1242
24,66;206,631;0,1241
24,84;208,106;0,1239
25,02;20,963;0,1239
25,2;211,124;0,1237
25,38;212,644;0,1236
25,56;214,139;0,1234
25,74;215,649;0,1234
25,92;217,126;0,1232
26,1;218,631;0,1232
26,28;220,122;0,123
26,46;221,634;0,123
26,64;223,131;0,1228
26,82;224,641;0,1227
27;226,139;0,1225
27,18;227,647;0,1224
27,36;229,125;0,1222
27,54;230,628;0,1222
27,72;232,111;0,1221
27,9;233,617;0,122
28,08;235,115;0,122
28,26;236,629;0,122
28,44;238,132;0,122
28,62;239,645;0,122
28,8;241,132;0,1219
28,98;242,624;0,122
29,16;244,115;0,122
29,34;245,618;0,122
29,52;24,712;0,1221
29,7;248,634;0,1221
29,88;250,137;0,1221
30,06;251,643;0,122
30,24;253,135;0,122
30,42;254,636;0,122
30,6;25,612;0,122
30,78;257,629;0,1221
30,96;259,124;0,1221
31,14;260,637;0,1221
31,32;262,135;0,1221
31,5;26,365;0,1221
31,68;26,514;0,1221
31,86;266,637;0,1221
32,04;268,117;0,122
32,22;269,623;0,1221
32,4;271,114;0,122
32,58;272,625;0,1221
32,76;274,126;0,122
32,94;275,638;0,1221
33,12;277,134;0,122
33,3;278,642;0,122
33,48;280,118;0,122
33,66;281,627;0,1221
33,84;283,109;0,122
34,02;284,626;0,1222
34,2;286,124;0,1221
34,38;287,645;0,1222
34,56;289,138;0,1221
34,74;290,649;0,1222
34,92;292,128;0,1222
35,1;293,634;0,1222
35,28;295,121;0,1222
35,46;296,633;0,1222
35,64;298,125;0,1222
35,82;299,642;0,1223
36;301,138;0,1222
36,18;302,646;0,1223
36,36;304,125;0,1222
36,54;305,626;0,1223
36,72;307,113;0,1223
36,9;308,619;0,1224
37,08;310,115;0,1225
37,26;311,636;0,1226
37,44;313,136;0,1226
37,62;314,639;0,1226
37,8;316,125;0,1227
37,98;317,624;0,1228
38,16;319,122;0,1228
38,34;32,062;0,1229
38,52;322,127;0,123
38,7;323,627;0,1231
38,88;325,135;0,1231
39,06;326,646;0,1232
39,24;328,138;0,1232
39,42;329,641;0,1234
39,6;331,125;0,1233
39,78;332,635;0,1234
39,96;334,126;0,1235
40,14;335,634;0,1235
40,32;337,132;0,1235
40,5;338,647;0,1236
40,68;340,138;0,1236
40,86;341,637;0,1236
41,04;343,116;0,1236
41,22;344,625;0,1237
41,4;346,109;0,1236
41,58;347,622;0,1237
41,76;349,125;0,1236
41,94;350,643;0,1237
42,12;352,135;0,1237
42,3;353,641;0,1237
42,48;355,115;0,1237
42,66;35,663;0,1238
42,84;35,811;0,1237
43,02;359,632;0,1238
43,2;361,128;0,1238
43,38;362,645;0,1239
43,56;364,139;0,1238
43,74;365,648;0,1238
43,92;367,133;0,1238
44,1;368,633;0,1239
44,28;37,012;0,1238
44,46;371,633;0,1239
44,64;37,313;0,1238
44,82;374,643;0,1238
45;376,139;0,1237
45,18;377,645;0,1237
45,36;379,129;0,1236
45,54;380,629;0,1237
45,72;382,112;0,1236
45,9;383,621;0,1237
46,08;385,115;0,1236
46,26;386,635;0,1236
46,44;388,136;0,1236
46,62;389,642;0,1236
46,8;391,128;0,1235
46,98;39,263;0,1236
47,16;39,412;0,1236
47,34;395,624;0,1236
47,52;397,121;0,1236
47,7;398,636;0,1236
47,88;400,135;0,1236
48,06;401,648;0,1236
48,24;403,141;0,1236
48,42;404,641;0,1236
48,6;406,123;0,1236
48,78;407,625;0,1236
48,96;409,124;0,1236
49,14;410,637;0,1237
49,32;412,137;0,1237
49,5;41,365;0,1238
49,68;415,142;0,1237
49,86;416,631;0,1238
50,04;418,115;0,1238
50,22;419,622;0,1239
50,4;421,111;0,1238
50,58;422,626;0,1239
50,76;424,125;0,1239
50,94;42,564;0,124
51,12;427,134;0,124
51,3;428,637;0,124
51,48;430,115;0,124
51,66;431,626;0,1241
51,84;433,107;0,1241
52,02;434,632;0,1242
52,2;436,122;0,1242
52,38;437,644;0,1243
52,56;43,914;0,1242
52,74;440,644;0,1243
52,92;442,128;0,1242
53,1;443,631;0,1243
53,28;44,512;0,1243
53,46;446,627;0,1243
53,64;448,125;0,1243
53,82;449,642;0,1243
54;451,139;0,1243
54,18;452,646;0,1243
54,36;454,129;0,1242
54,54;455,629;0,1243
54,72;457,115;0,1243
54,9;458,621;0,1243
55,08;460,122;0,1243
55,26;461,629;0,1244
55,44;463,132;0,1244
55,62;46,464;0,1244
55,8;46,613;0,1244
55,98;467,624;0,1244
56,16;46,912;0,1245
56,34;470,622;0,1246
56,52;472,122;0,1246
56,7;47,363;0,1246
56,88;475,138;0,1247
57,06;476,648;0,1247
57,24;478,137;0,1247
57,42;479,641;0,1248
57,6;481,123;0,1247
57,78;482,633;0,1248
57,96;484,123;0,1248
58,14;485,636;0,1249
58,32;487,132;0,1248
58,5;488,648;0,1248
58,68;490,136;0,1248
58,86;49,164;0,1248
59,04;493,118;0,1248
59,22;494,622;0,1248
59,4;496,114;0,1248
59,58;497,623;0,1248
59,76;499,126;0,1247
59,94;50,064;0,1248
60,12;502,133;0,1247
60,3;503,643;0,1247
60,48;505,116;0,1246
60,66;506,628;0,1247
60,84;508,107;0,1247
61,02;509,628;0,1247
61,2;511,119;0,1247
61,38;512,646;0,1247
61,56;51,414;0,1246
61,74;51,565;0,1246
61,92;517,127;0,1246
62,1;518,633;0,1246
62,28;52,012;0,1245
62,46;521,634;0,1246
62,64;52,313;0,1245
62,82;524,643;0,1245
63;526,138;0,1244
63,18;527,643;0,1244
63,36;529,127;0,1244
63,54;530,629;0,1244
63,72;532,111;0,1244
63,9;533,619;0,1244
64,08;535,117;0,1244
64,26;536,632;0,1244
64,44;538,129;0,1243
64,62;539,641;0,1243
64,8;541,129;0,1243
64,98;542,626;0,1243
65,16;544,114;0,1243
65,34;545,617;0,1243
65,52;547,124;0,1243
65,7;548,631;0,1244
65,88;550,134;0,1243
66,06;551,647;0,1244
66,24;553,139;0,1243
66,42;55,464;0,1244
66,6;556,127;0,1243
66,78;557,629;0,1243
66,96;559,122;0,1243
67,14;560,636;0,1243
67,32;562,135;0,1242
67,5;56,365;0,1243
67,68;565,139;0,1242
67,86;566,638;0,1242
68,04;568,116;0,1241
68,22;569,617;0,1241
68,4;571,115;0,1241
68,58;572,627;0,1241
68,76;574,125;0,124
68,94;575,641;0,1241
69,12;577,134;0,124
69,3;578,635;0,124
69,48;580,114;0,124
69,66;581,626;0,124
69,84;58,311;0,124
70,02;584,632;0,124
70,2;586,122;0,124
70,38;587,647;0,124
70,56;589,138;0,124
70,74;590,646;0,124
70,92;59,213;0,1239
71,1;593,636;0,1239
71,28;595,125;0,1239
71,46;596,633;0,1239
71,64;598,129;0,1239
71,82;599,641;0,1239
72;601,137;0,1239
72,18;602,647;0,1239
72,36;604,131;0,1238
72,54;605,628;0,1239
72,72;607,109;0,1238
72,9;60,862;0,1238
73,08;610,121;0,1238
73,26;611,636;0,1238
73,44;613,133;0,1238
73,62;614,641;0,1237
73,8;61,613;0,1237
73,98;617,619;0,1237
74,16;619,121;0,1237
74,34;620,618;0,1237
74,52;622,123;0,1237
74,7;62,363;0,1237
74,88;625,135;0,1237
75,06;626,644;0,1237
75,24;628,139;0,1236
75,42;629,639;0,1236
75,6;631,124;0,1236
75,78;632,632;0,1236
75,96;634,125;0,1236
76,14;635,636;0,1236
76,32;637,136;0,1236
76,5;638,649;0,1236
76,68;640,134;0,1235
76,86;641,638;0,1236
77,04;643,115;0,1236
77,22;644,624;0,1236
77,4;646,113;0,1236
77,58;647,628;0,1237
77,76;649,127;0,1236
77,94;650,641;0,1237
78,12;652,134;0,1236
78,3;653,641;0,1237
78,48;655,118;0,1236
78,66;656,632;0,1237
78,84;658,108;0,1237
79,02;659,631;0,1238
79,2;661,122;0,1237
79,38;662,645;0,1238
79,56;664,138;0,1237
79,74;665,649;0,1238
79,92;667,127;0,1237
80,1;668,635;0,1237
80,28;670,121;0,1237
80,46;67,163;0,1237
80,64;673,128;0,1237
80,82;674,645;0,1237
81;676,137;0,1236
81,18;677,646;0,1237
81,36;679,128;0,1236
81,54;680,624;0,1237
81,72;682,114;0,1237
81,9;683,618;0,1237
82,08;685,117;0,1237
82,26;686,632;0,1237
82,44;688,134;0,1237
82,62;689,641;0,1237
82,8;69,113;0,1237
82,98;692,627;0,1237
83,16;694,122;0,1237
83,34;695,618;0,1238
83,52;697,122;0,1238
83,7;698,632;0,1238
83,88;700,136;0,1238
84,06;701,647;0,1238
84,24;703,139;0,1238
84,42;704,641;0,1238
84,6;70,612;0,1238
84,78;707,627;0,1238
84,96;709,124;0,1237
85,14;710,635;0,1237
85,32;712,135;0,1237
85,5;713,646;0,1236
85,68;715,141;0,1236
85,86;716,635;0,1235
86,04;71,812;0,1235
86,22;719,626;0,1235
86,4;721,113;0,1234
86,58;722,624;0,1235
86,76;724,123;0,1234
86,94;725,641;0,1235
87,12;727,133;0,1234
87,3;728,638;0,1234
87,48;730,116;0,1234
87,66;731,622;0,1234
87,84;733,105;0,1234
88,02;734,627;0,1235
88,2;736,123;0,1235
88,38;737,648;0,1235
88,56;739,137;0,1234
88,74;740,647;0,1235
88,92;742,128;0,1234
89,1;743,633;0,1235
89,28;745,121;0,1234
89,46;746,633;0,1235
89,64;748,127;0,1234
89,82;749,641;0,1235
90;751,139;0,1235
90,18;752,644;0,1235
90,36;754,127;0,1234
90,54;755,626;0,1235
90,72;757,114;0,1234
90,9;758,624;0,1234
91,08;760,118;0,1234
91,26;761,633;0,1233
91,44;76,313;0,1233
91,62;764,642;0,1232
91,8;766,134;0,1232
91,98;767,623;0,1232
92,16;769,118;0,1231
92,34;770,617;0,1231
92,52;772,123;0,1231
92,7;773,631;0,1231
92,88;77,514;0,123
93,06;776,643;0,123
93,24;778,139;0,123
93,42;779,637;0,123
93,6;781,123;0,1229
93,78;782,634;0,1229
93,96;784,123;0,1229
94,14;785,635;0,1229
94,32;787,133;0,1228
94,5;788,649;0,1229
94,68;790,135;0,1228
94,86;791,639;0,1228
95,04;793,112;0,1227
95,22;794,621;0,1227
95,4;79,611;0,1227
95,58;797,626;0,1227
95,76;799,128;0,1226
95,94;800,641;0,1226
96,12;802,131;0,1225
96,3;803,639;0,1226
96,48;805,113;0,1225
96,66;80,663;0,1226
96,84;80,811;0,1225
97,02;80,963;0,1226
97,2;811,122;0,1225
97,38;812,643;0,1225
97,56;814,137;0,1225
97,74;815,645;0,1225
97,92;817,132;0,1224
98,1;818,632;0,1224
98,28;820,118;0,1224
98,46;82,163;0,1224
98,64;823,129;0,1224
98,82;824,638;0,1224
99;826,137;0,1223
99,18;827,646;0,1224
99,36;829,128;0,1223
99,54;830,632;0,1224
99,72;832,113;0,1224
99,9;833,621;0,1224
100,08;835,115;0,1224
100,26;83,663;0,1224
100,44;838,131;0,1224
100,62;839,641;0,1224
100,8;841,131;0,1224
100,98;842,623;0,1224
101,16;844,119;0,1224
101,34;84,562;0,1225
101,52;847,121;0,1224
101,7;848,631;0,1225
101,88;850,135;0,1224
102,06;851,648;0,1224
102,24;853,137;0,1223
102,42;854,641;0,1224
102,6;856,123;0,1223
102,78;857,628;0,1223
102,96;859,122;0,1222
103,14;860,636;0,1222
103,32;862,137;0,1221
103,5;863,648;0,122
103,68;86,514;0,122
103,86;866,636;0,1219
104,04;868,116;0,1219
104,22;869,619;0,1219
104,4;871,118;0,1219
104,58;872,626;0,1218
104,76;874,125;0,1218
104,94;875,638;0,1217
105,12;877,131;0,1216
105,3;878,641;0,1216
105,48;880,118;0,1215
105,66;88,163;0,1215
105,84;883,111;0,1215
106,02;884,632;0,1215
106,2;886,124;0,1214
106,38;887,646;0,1214
106,56;88,914;0,1213
106,74;890,647;0,1213
106,92;892,125;0,1212
107,1;893,634;0,1212
107,28;895,122;0,1212
107,46;896,633;0,1212
107,64;898,128;0,1211
107,82;899,643;0,1211
108;901,142;0,121
108,18;902,646;0,121
108,36;904,123;0,1209
108,54;905,626;0,1209
108,72;907,108;0,1208
108,9;908,622;0,1208
109,08;910,121;0,1207
109,26;911,633;0,1207
109,44;91,313;0,1206
109,62;914,642;0,1206
109,8;916,128;0,1205
109,98;917,627;0,1205
110,16;919,117;0,1204
110,34;920,618;0,1204
110,52;922,124;0,1204
110,7;923,626;0,1204
110,88;925,138;0,1203
111,06;926,646;0,1203
111,24;92,814;0,1202
111,42;929,635;0,1202
111,6;931,125;0,1201
111,78;932,631;0,1201
111,96;934,121;0,1201
112,14;935,637;0,1201
112,32;937,135;0,12
112,5;938,649;0,12
112,68;940,133;0,1199
112,86;941,635;0,1199
113,04;943,116;0,1198
113,22;944,624;0,1198
113,4;946,108;0,1198
113,58;947,627;0,1198
113,76;949,121;0,1197
113,94;950,641;0,1197
114,12;952,134;0,1196
114,3;953,643;0,1197
114,48;955,116;0,1196
114,66;956,625;0,1196
114,84;958,111;0,1195
115,02;959,629;0,1195
115,2;961,124;0,1195
115,38;962,642;0,1195
115,56;964,139;0,1194
115,74;965,646;0,1194
115,92;967,131;0,1193
116,1;968,632;0,1194
116,28;970,123;0,1193
116,46;971,636;0,1193
116,64;973,131;0,1193
116,82;974,645;0,1193
117;976,136;0,1193
117,18;977,645;0,1193
117,36;979,133;0,1193
117,54;980,624;0,1193
117,72;982,113;0,1193
117,9;983,624;0,1194
118,08;985,114;0,1194
118,26;986,634;0,1194
118,44;988,126;0,1194
118,62;989,646;0,1194
118,8;991,133;0,1194
118,98;992,625;0,1194
119,16;99,412;0,1194
119,34;995,623;0,1195
119,52;997,121;0,1195
119,7;998,629;0,1195
119,88;100,014;0,1195
120,06;1,001,649;0,1195
120,24;1,003,136;0,1194
120,42;1,004,637;0,1195
120,6;1,006,124;0,1194
120,78;100,763;0,1195
120,96;1,009,124;0,1195
121,14;1,010,635;0,1195
121,32;1,012,139;0,1195
121,5;101,365;0,1195
121,68;1,015,137;0,1195
121,86;1,016,637;0,1195
122,04;101,812;0,1195
122,22;1,019,626;0,1196
122,4;1,021,111;0,1196
122,58;1,022,621;0,1196
122,76;1,024,126;0,1196
122,94;1,025,641;0,1197
123,12;1,027,129;0,1197
123,3;1,028,638;0,1198
123,48;1,030,117;0,1198
123,66;1,031,626;0,1199
123,84;103,311;0,12
124,02;1,034,629;0,1201
124,2;1,036,122;0,1202
124,38;1,037,645;0,1203
124,56;1,039,136;0,1203
124,74;1,040,652;0,1205
124,92;1,042,131;0,1205
125,1;1,043,634;0,1207
125,28;1,045,117;0,1208
125,46;1,046,632;0,1209
125,64;104,813;0,1209
125,82;1,049,641;0,121
126;1,051,138;0,1211
126,18;1,052,648;0,1212
126,36;1,054,129;0,1212
126,54;1,055,632;0,1213
126,72;1,057,113;0,1214
126,9;1,058,622;0,1215
127,08;1,060,117;0,1216
127,26;1,061,634;0,1217
127,44;1,063,135;0,1217
127,62;1,064,641;0,1218
127,8;1,066,126;0,1219
127,98;1,067,625;0,122
128,16;1,069,119;0,1221
128,34;107,062;0,1222
128,52;1,072,122;0,1223
128,7;1,073,626;0,1223
128,88;1,075,136;0,1224
129,06;1,076,646;0,1225
129,24;1,078,138;0,1226
129,42;1,079,642;0,1227
129,6;108,112;0,1227
129,78;1,082,633;0,1228
129,96;1,084,123;0,1229
130,14;1,085,631;0,123
130,32;1,087,135;0,123
130,5;1,088,645;0,1231
130,68;1,090,143;0,1231
130,86;1,091,638;0,1232
131,04;1,093,115;0,1233
131,22;1,094,625;0,1235
131,4;1,096,109;0,1235
131,58;1,097,622;0,1236
131,76;1,099,124;0,1236
131,94;1,100,641;0,1237
132,12;1,102,132;0,1237
132,3;1,103,635;0,1239
132,48;1,105,118;0,1239
132,66;1,106,631;0,1241
132,84;1,108,108;0,1241
133,02;1,109,628;0,1242
133,2;1,111,121;0,1243
133,38;1,112,644;0,1244
133,56;1,114,142;0,1244
133,74;111,565;0,1246
133,92;1,117,132;0,1246
134,1;1,118,635;0,1247
134,28;1,120,121;0,1248
134,46;1,121,634;0,125
134,64;1,123,131;0,1251
134,82;112,464;0,1252
135;1,126,135;0,1253
135,18;1,127,641;0,1254
135,36;1,129,126;0,1255
135,54;1,130,629;0,1257
135,72;1,132,111;0,1258
135,9;1,133,624;0,1259
136,08;1,135,118;0,126
136,26;1,136,631;0,126
136,44;113,813;0,1261
136,62;1,139,643;0,1262
136,8;1,141,133;0,1263
136,98;1,142,627;0,1263
137,16;1,144,117;0,1264
137,34;1,145,619;0,1264
137,52;1,147,122;0,1265
137,7;1,148,631;0,1266
137,88;1,150,137;0,1266
138,06;1,151,646;0,1267
138,24;115,314;0,1267
138,42;1,154,642;0,1267
138,6;115,612;0,1267
138,78;1,157,631;0,1267
138,96;1,159,123;0,1267
139,14;1,160,639;0,1268
139,32;1,162,134;0,1268
139,5;1,163,647;0,1268
139,68;1,165,133;0,1268
139,86;1,166,634;0,1269
140,04;1,168,121;0,127
140,22;1,169,623;0,127
140,4;1,171,113;0,1271
140,58;1,172,622;0,1271
140,76;1,174,126;0,1271
140,94;1,175,643;0,1272
141,12;1,177,132;0,1272
141,3;1,178,637;0,1273
141,48;1,180,116;0,1273
141,66;118,163;0,1274
141,84;1,183,106;0,1275
142,02;1,184,629;0,1276
142,2;1,186,124;0,1276
142,38;1,187,643;0,1277
142,56;1,189,137;0,1277
142,74;1,190,646;0,1278
142,92;1,192,125;0,1278
143,1;1,193,633;0,1279
143,28;119,512;0,1279
143,46;1,196,633;0,128
143,64;1,198,125;0,128
143,82;119,964;0,1281
144;120,114;0,1281
144,18;1,202,647;0,1282
144,36;1,204,127;0,1281
144,54;1,205,628;0,1282
144,72;1,207,113;0,1281
144,9;1,208,619;0,1282
145,08;1,210,115;0,1282
145,26;1,211,633;0,1282
145,44;121,313;0,1282
145,62;1,214,644;0,1282
145,8;1,216,133;0,1282
145,98;1,217,631;0,1282
146,16;1,219,115;0,1282
146,34;1,220,618;0,1283
146,52;1,222,121;0,1283
146,7;1,223,633;0,1283
146,88;1,225,137;0,1283
147,06;1,226,645;0,1283
147,24;1,228,137;0,1283
147,42;1,229,636;0,1284
147,6;123,112;0,1284
147,78;1,232,629;0,1285
147,96;1,234,125;0,1285
148,14;1,235,634;0,1285
148,32;1,237,134;0,1285
148,5;1,238,646;0,1285
148,68;1,240,136;0,1285
148,86;1,241,637;0,1285
149,04;1,243,117;0,1285
149,22;1,244,624;0,1286
149,4;1,246,111;0,1286
149,58;1,247,624;0,1286
149,76;1,249,124;0,1286
149,94;1,250,642;0,1286
150,12;125,213;0,1285
150,3;1,253,642;0,1286
150,48;1,255,117;0,1285
150,66;1,256,629;0,1286
150,84;1,258,108;0,1285
151,02;125,963;0,1286
151,2;1,261,126;0,1285
151,38;1,262,645;0,1285
151,56;1,264,139;0,1285
151,74;1,265,646;0,1285
151,92;1,267,129;0,1285
152,1;1,268,635;0,1285
152,28;1,270,122;0,1285
152,46;1,271,631;0,1285
152,64;1,273,128;0,1285
152,82;1,274,643;0,1285
153;1,276,138;0,1285
153,18;1,277,647;0,1286
153,36;1,279,126;0,1286
153,54;1,280,627;0,1286
153,72;1,282,114;0,1286
153,9;1,283,622;0,1287
154,08;1,285,113;0,1287
154,26;1,286,633;0,1287
154,44;1,288,134;0,1287
154,62;1,289,641;0,1287
154,8;1,291,128;0,1287
154,98;1,292,626;0,1287
155,16;1,294,116;0,1288
155,34;129,562;0,1288
155,52;129,712;0,1288
155,7;1,298,634;0,1289
155,88;1,300,139;0,1289
156,06;1,301,648;0,1289
156,24;1,303,138;0,1289
156,42;1,304,637;0,129
156,6;1,306,124;0,129
156,78;1,307,633;0,129
156,96;1,309,126;0,129
157,14;1,310,631;0,129
157,32;1,312,132;0,129
157,5;131,365;0,1291
157,68;1,315,138;0,129
157,86;1,316,639;0,1291
158,04;1,318,115;0,129
158,22;1,319,623;0,129
158,4;1,321,114;0,129
158,58;1,322,625;0,1291
158,76;1,324,127;0,129
158,94;132,564;0,129
159,12;1,327,132;0,129
159,3;1,328,636;0,129
159,48;1,330,113;0,129
159,66;1,331,632;0,1291
159,84;1,333,113;0,1291
160,02;1,334,626;0,1291
160,2;1,336,121;0,1291
160,38;1,337,644;0,1292
160,56;1,339,136;0,1292
160,74;1,340,647;0,1293
160,92;1,342,129;0,1293
161,1;1,343,636;0,1294
161,28;134,512;0,1294
161,46;1,346,635;0,1295
161,64;1,348,125;0,1295
161,82;1,349,646;0,1295
162;1,351,139;0,1295
162,18;1,352,645;0,1296
162,36;1,354,126;0,1296
162,54;1,355,627;0,1297
162,72;1,357,115;0,1298
162,9;1,358,619;0,1298
163,08;1,360,122;0,1299
163,26;1,361,631;0,1299
163,44;1,363,132;0,13
163,62;1,364,642;0,13
163,8;1,366,129;0,1301
163,98;1,367,625;0,1302
164,16;1,369,119;0,1302
164,34;1,370,617;0,1302
164,52;1,372,123;0,1303
164,7;1,373,629;0,1303
164,88;137,514;0,1304
165,06;1,376,647;0,1304
165,24;1,378,141;0,1304
165,42;1,379,639;0,1305
165,6;1,381,127;0,1305
165,78;1,382,633;0,1306
165,96;1,384,122;0,1306
166,14;1,385,634;0,1307
166,32;1,387,134;0,1307
166,5;1,388,649;0,1307
166,68;1,390,138;0,1307
166,86;1,391,636;0,1308
167,04;1,393,116;0,1308
167,22;1,394,623;0,1309
167,4;1,396,115;0,1309
167,58;1,397,625;0,131
167,76;1,399,124;0,131
167,94;1,400,643;0,1311
168,12;1,402,133;0,1311
168,3;1,403,643;0,1312
168,48;1,405,115;0,1312
168,66;1,406,628;0,1313
168,84;1,408,109;0,1313
169,02;140,963;0,1314
169,2;1,411,121;0,1314
169,38;1,412,644;0,1315
169,56;1,414,139;0,1315
169,74;1,415,644;0,1315
169,92;1,417,136;0,1316
170,1;1,418,634;0,1316
170,28;1,420,121;0,1316
170,46;1,421,629;0,1317
170,64;1,423,128;0,1317
170,82;1,424,644;0,1318
171;1,426,138;0,1318
171,18;1,427,644;0,1319
171,36;1,429,128;0,132
171,54;143,063;0,1321
171,72;1,432,111;0,1321
171,9;143,362;0,1322
172,08;1,435,119;0,1322
172,26;1,436,633;0,1323
172,44;1,438,131;0,1323
172,62;1,439,638;0,1323
172,8;1,441,131;0,1323
172,98;1,442,625;0,1324
173,16;1,444,119;0,1324
173,34;1,445,619;0,1325
173,52;1,447,117;0,1325
173,7;1,448,631;0,1326
173,88;1,450,137;0,1326
174,06;1,451,651;0,1327
174,24;1,453,139;0,1327
174,42;1,454,639;0,1327
174,6;145,612;0,1327
174,78;1,457,632;0,1328
174,96;1,459,122;0,1328
175,14;1,460,635;0,1329
175,32;1,462,135;0,1329
175,5;1,463,646;0,1329
175,68;1,465,135;0,133
175,86;1,466,633;0,1331
176,04;1,468,118;0,1331
176,22;1,469,624;0,1332
176,4;1,471,113;0,1332
176,58;1,472,621;0,1333
176,76;1,474,121;0,1333
176,94;1,475,638;0,1334
177,12;1,477,132;0,1335
177,3;1,478,637;0,1336
177,48;1,480,115;0,1336
177,66;1,481,627;0,1338
177,84;1,483,112;0,1338
178,02;1,484,626;0,134
178,2;1,486,124;0,134
178,38;1,487,642;0,1341
178,56;1,489,139;0,1342
178,74;1,490,645;0,1343
178,92;1,492,129;0,1344
179,1;1,493,638;0,1345
179,28;1,495,118;0,1346
179,46;1,496,631;0,1347
179,64;1,498,125;0,1347
179,82;1,499,639;0,1348
180;1,501,142;0,1349
180,18;1,502,651;0,135
180,36;1,504,129;0,135
180,54;1,505,628;0,1351
180,72;1,507,114;0,1351
180,9;150,862;0,1352
181,08;1,510,116;0,1353
181,26;151,163;0,1354
181,44;1,513,133;0,1354
181,62;1,514,642;0,1355
181,8;1,516,129;0,1355
181,98;1,517,624;0,1356
182,16;151,912;0,1357
182,34;1,520,617;0,1358
182,52;1,522,121;0,1358
182,7;1,523,632;0,1359
182,88;1,525,136;0,1359
183,06;1,526,645;0,136
183,24;1,528,137;0,1361
183,42;1,529,642;0,1362
183,6;1,531,125;0,1363
183,78;1,532,631;0,1364
183,96;1,534,124;0,1365
184,14;1,535,636;0,1366
184,32;1,537,133;0,1367
184,5;1,538,652;0,1368
184,68;1,540,138;0,1368
184,86;1,541,638;0,1369
185,04;1,543,119;0,137
185,22;1,544,623;0,1371
185,4;1,546,111;0,1372
185,58;1,547,623;0,1374
185,76;1,549,125;0,1374
185,94;1,550,645;0,1376
186,12;1,552,134;0,1376
186,3;1,553,639;0,1378
186,48;1,555,112;0,1378
186,66;155,663;0,138
186,84;1,558,108;0,138
187,02;155,963;0,1382
187,2;1,561,124;0,1382
187,38;156,264;0,1384
187,56;1,564,138;0,1384
187,74;1,565,646;0,1385
187,92;1,567,133;0,1386
188,1;1,568,629;0,1387
188,28;1,570,125;0,1388
188,46;1,571,633;0,1389
188,64;1,573,128;0,139
188,82;1,574,643;0,1391
189;157,614;0,1392
189,18;1,577,646;0,1393
189,36;1,579,127;0,1393
189,54;1,580,633;0,1394
189,72;1,582,114;0,1395
189,9;1,583,618;0,1396
190,08;1,585,113;0,1397
190,26;1,586,634;0,1398
190,44;1,588,132;0,1398
190,62;1,589,643;0,1399
190,8;1,591,132;0,14
190,98;1,592,629;0,1401
191,16;1,594,119;0,1401
191,34;1,595,622;0,1402
191,52;159,712;0,1403
191,7;1,598,632;0,1404
191,88;1,600,135;0,1404
192,06;1,601,646;0,1406
192,24;1,603,138;0,1406
192,42;1,604,641;0,1407
192,6;1,606,124;0,1408
192,78;1,607,629;0,1409
192,96;1,609,123;0,141
193,14;1,610,633;0,1411
193,32;1,612,135;0,1411
193,5;1,613,649;0,1412
193,68;1,615,136;0,1413
193,86;1,616,639;0,1414
194,04;1,618,118;0,1415
194,22;1,619,622;0,1416
194,4;1,621,111;0,1417
194,58;1,622,626;0,1418
194,76;1,624,128;0,1419
194,94;1,625,637;0,142
195,12;162,713;0,1421
195,3;1,628,639;0,1423
195,48;1,630,119;0,1424
195,66;1,631,626;0,1425
195,84;1,633,111;0,1426
196,02;1,634,629;0,1427
196,2;1,636,124;0,1428
196,38;1,637,645;0,1429
196,56;1,639,139;0,143
196,74;1,640,649;0,1431
196,92;1,642,127;0,1432
197,1;1,643,635;0,1434
197,28;1,645,118;0,1434
197,46;1,646,634;0,1436
197,64;1,648,125;0,1436
197,82;1,649,644;0,1437
198;1,651,142;0,1438
198,18;1,652,645;0,1439
198,36;1,654,128;0,144
198,54;1,655,629;0,1442
198,72;1,657,113;0,1443
198,9;1,658,624;0,1444
199,08;1,660,113;0,1445
199,26;1,661,634;0,1446
199,44;1,663,136;0,1447
199,62;1,664,643;0,1449
199,8;1,666,131;0,145
199,98;1,667,627;0,1451
200,16;166,912;0,1452
200,34;1,670,615;0,1453
200,52;1,672,125;0,1454
200,7;167,363;0,1455
200,88;1,675,138;0,1455
201,06;1,676,645;0,1456
201,24;1,678,139;0,1457
201,42;1,679,641;0,1458
201,6;1,681,124;0,1459
201,78;1,682,632;0,146
201,96;1,684,122;0,1461
202,14;1,685,639;0,1463
202,32;1,687,132;0,1463
202,5;1,688,645;0,1464
202,68;1,690,136;0,1465
202,86;1,691,638;0,1466
203,04;1,693,113;0,1467
203,22;1,694,623;0,1469
203,4;1,696,113;0,1469
203,58;1,697,624;0,1471
203,76;1,699,121;0,1471
203,94;170,064;0,1473
204,12;170,213;0,1473
204,3;1,703,645;0,1475
204,48;1,705,116;0,1475
204,66;1,706,623;0,1476
204,84;1,708,105;0,1477
205,02;1,709,629;0,1478
205,2;1,711,121;0,1479
205,38;1,712,644;0,148
205,56;1,714,141;0,148
205,74;1,715,644;0,1481
205,92;1,717,127;0,1482
206,1;1,718,635;0,1483
206,28;1,720,122;0,1483
206,46;1,721,631;0,1484
206,64;1,723,128;0,1485
206,82;1,724,639;0,1485
207;1,726,138;0,1486
207,18;1,727,645;0,1487
207,36;1,729,128;0,1487
207,54;1,730,626;0,1488
207,72;1,732,112;0,1489
207,9;1,733,622;0,149
208,08;1,735,118;0,1491
208,26;1,736,633;0,1492
208,44;1,738,133;0,1493
208,62;1,739,641;0,1494
208,8;1,741,131;0,1495
208,98;1,742,628;0,1496
209,16;1,744,119;0,1497
209,34;1,745,617;0,1498
209,52;1,747,114;0,1499
209,7;1,748,632;0,15
209,88;1,750,135;0,1501
210,06;1,751,647;0,1502
210,24;1,753,139;0,1503
210,42;175,464;0,1504
210,6;1,756,125;0,1505
210,78;1,757,628;0,1506
210,96;1,759,124;0,1507
211,14;1,760,634;0,1508
211,32;1,762,132;0,1509
211,5;1,763,649;0,1511
211,68;176,514;0,1511
211,86;1,766,637;0,1513
212,04;1,768,116;0,1514
212,22;176,962;0,1515
212,4;1,771,108;0,1517
212,58;1,772,627;0,1518
212,76;1,774,129;0,1519
212,94;1,775,641;0,1521
213,12;1,777,133;0,1522
213,3;1,778,641;0,1523
213,48;1,780,116;0,1524
213,66;1,781,627;0,1526
213,84;1,783,111;0,1527
214,02;1,784,628;0,1529
214,2;1,786,122;0,153
214,38;1,787,641;0,1532
214,56;1,789,136;0,1533
214,74;1,790,648;0,1534
214,92;1,792,132;0,1536
215,1;1,793,636;0,1537
215,28;1,795,122;0,1538
215,46;1,796,633;0,154
215,64;1,798,121;0,154
215,82;1,799,639;0,1542
216;1,801,141;0,1543
216,18;1,802,649;0,1544
216,36;1,804,129;0,1545
216,54;1,805,625;0,1546
216,72;1,807,116;0,1547
216,9;1,808,621;0,1548
217,08;1,810,119;0,1549
217,26;1,811,633;0,155
217,44;1,813,131;0,1551
217,62;1,814,639;0,1552
217,8;181,613;0,1553
217,98;1,817,625;0,1555
218,16;181,912;0,1556
218,34;182,062;0,1557
218,52;1,822,121;0,1558
218,7;1,823,631;0,1559
218,88;1,825,133;0,156
219,06;1,826,645;0,1561
219,24;1,828,137;0,1562
219,42;1,829,642;0,1563
219,6;1,831,125;0,1564
219,78;1,832,631;0,1565
219,96;1,834,121;0,1566
220,14;183,564;0,1567
220,32;1,837,133;0,1568
220,5;1,838,647;0,1569
220,68;1,840,137;0,157
220,86;1,841,637;0,1571
221,04;1,843,116;0,1572
221,22;1,844,623;0,1573
221,4;184,611;0,1574
221,58;1,847,626;0,1575
221,76;1,849,126;0,1576
221,94;1,850,639;0,1577
222,12;1,852,135;0,1577
222,3;185,364;0,1579
222,48;1,855,114;0,158
222,66;1,856,631;0,1581
222,84;185,811;0,1582
223,02;1,859,631;0,1583
223,2;1,861,124;0,1584
223,38;1,862,643;0,1586
223,56;186,414;0,1587
223,74;1,865,649;0,1588
223,92;1,867,128;0,1589
224,1;1,868,635;0,159
224,28;1,870,117;0,1591
224,46;1,871,629;0,1593
224,64;1,873,128;0,1593
224,82;1,874,642;0,1595
225;1,876,143;0,1595
225,18;1,877,644;0,1596
225,36;187,913;0,1597
225,54;1,880,625;0,1598
225,72;1,882,112;0,16
225,9;1,883,621;0,1601
226,08;1,885,116;0,1602
226,26;1,886,631;0,1603
226,44;1,888,128;0,1604
226,62;1,889,641;0,1605
226,8;1,891,133;0,1606
226,98;1,892,628;0,1607
227,16;1,894,115;0,1608
227,34;1,895,619;0,1609
227,52;1,897,122;0,161
227,7;1,898,634;0,1611
227,88;1,900,135;0,1612
228,06;1,901,647;0,1613
228,24;1,903,138;0,1614
228,42;1,904,637;0,1615
228,6;1,906,122;0,1615
228,78;1,907,633;0,1617
228,96;1,909,122;0,1618
229,14;1,910,636;0,1619
229,32;1,912,135;0,1619
229,5;1,913,647;0,1621
229,68;1,915,139;0,1622
229,86;1,916,638;0,1623
230,04;1,918,121;0,1624
230,22;1,919,624;0,1625
230,4;1,921,112;0,1626
230,58;1,922,629;0,1627
230,76;1,924,123;0,1628
230,94;1,925,638;0,163
231,12;1,927,136;0,163
231,3;1,928,642;0,1632
231,48;1,930,117;0,1633
231,66;193,163;0,1634
231,84;1,933,107;0,1635
232,02;1,934,627;0,1636
232,2;1,936,125;0,1637
232,38;1,937,645;0,1638
232,56;1,939,141;0,1639
232,74;1,940,648;0,164
232,92;1,942,132;0,164
233,1;1,943,636;0,1642
233,28;1,945,123;0,1642
233,46;1,946,634;0,1643
233,64;1,948,127;0,1644
233,82;194,964;0,1645
234;1,951,142;0,1646
234,18;1,952,647;0,1647
234,36;1,954,129;0,1647
234,54;1,955,629;0,1648
234,72;1,957,112;0,1649
234,9;195,862;0,165
235,08;1,960,115;0,1651
235,26;1,961,634;0,1652
235,44;196,313;0,1652
235,62;1,964,644;0,1653
235,8;1,966,132;0,1654
235,98;1,967,625;0,1655
236,16;1,969,122;0,1656
236,34;1,970,619;0,1657
236,52;1,972,122;0,1657
236,7;1,973,632;0,1658
236,88;1,975,138;0,1659
237,06;1,976,646;0,166
237,24;1,978,139;0,166
237,42;1,979,637;0,1661
237,6;1,981,124;0,1662
237,78;1,982,631;0,1663
237,96;1,984,123;0,1663
238,14;1,985,638;0,1664
238,32;1,987,133;0,1665
238,5;1,988,649;0,1666
238,68;1,990,137;0,1666
238,86;1,991,636;0,1667
239,04;1,993,117;0,1668
239,22;1,994,624;0,1668
239,4;1,996,115;0,1669
239,58;1,997,621;0,167
239,76;1,999,123;0,167
239,94;2,000,643;0,1672
240,12;2,002,133;0,1672
240,3;2,003,642;0,1673
240,48;2,005,116;0,1674
240,66;2,006,626;0,1676
240,84;2,008,108;0,1676
241,02;2,009,629;0,1678
241,2;2,011,124;0,1678
241,38;2,012,643;0,1679
241,56;2,014,138;0,168
241,74;2,015,645;0,1681
241,92;2,017,132;0,1682
242,1;2,018,634;0,1683
242,28;202,012;0,1684
242,46;2,021,634;0,1685
242,64;2,023,128;0,1686
242,82;2,024,642;0,1687
243;2,026,143;0,1688
243,18;2,027,645;0,1689
243,36;2,029,128;0,169
243,54;2,030,627;0,1691
243,72;2,032,114;0,1692
243,9;2,033,619;0,1693
244,08;2,035,118;0,1694
244,26;2,036,635;0,1695
244,44;2,038,135;0,1696
244,62;2,039,645;0,1697
244,8;2,041,128;0,1697
244,98;2,042,627;0,1698
245,16;2,044,118;0,1699
245,34;2,045,623;0,17
245,52;2,047,118;0,1701
245,7;2,048,631;0,1702
245,88;2,050,136;0,1703
246,06;2,051,647;0,1704
246,24;2,053,141;0,1704
246,42;2,054,641;0,1705
246,6;2,056,122;0,1706
246,78;2,057,634;0,1707
246,96;205,912;0,1708
247,14;2,060,635;0,1709
247,32;2,062,135;0,1709
247,5;2,063,648;0,171
247,68;206,514;0,1711
247,86;2,066,637;0,1712
248,04;2,068,118;0,1713
248,22;2,069,625;0,1714
248,4;2,071,113;0,1715
248,58;2,072,624;0,1716
248,76;2,074,125;0,1717
248,94;207,564;0,1718
249,12;2,077,132;0,1719
249,3;2,078,642;0,172
249,48;2,080,117;0,1721
249,66;208,163;0,1722
249,84;208,311;0,1723
250,02;2,084,629;0,1724
250,2;2,086,121;0,1725
250,38;2,087,643;0,1726
250,56;2,089,142;0,1727
250,74;2,090,647;0,1728
250,92;2,092,129;0,1728
251,1;2,093,633;0,1729
251,28;2,095,119;0,1729
251,46;209,663;0,173
251,64;2,098,126;0,173
251,82;2,099,643;0,173
252;2,101,141;0,173
252,18;2,102,645;0,1729
252,36;2,104,125;0,1728
252,54;2,105,629;0,1727
252,72;2,107,114;0,1723
252,9;2,108,622;0,1716
253,08;211,012;0,1699
253,162;2,110,849;0,1004